Folder: HMT-Agrivoltaics/Optical

Note: Optical/k_SodaLime_IR.txt
wl	k
0.300	2.8607E-06
0.310	1.3679E-06
0.320	6.6608E-07
0.334	2.6415E-07
0.350	9.2894E-08
0.365	3.4191E-08
0.370	2.7405E-08
0.380	2.0740E-08
0.390	1.3731E-08
0.400	1.0227E-08
0.405	9.0558E-09
0.420	9.3912E-09
0.436	1.1147E-08
0.460	1.0286E-08
0.500	9.5781E-09
0.546	6.9658E-09
0.580	9.2541E-09
0.620	1.1877E-08
0.660	1.2643E-08
0.700	8.9305E-09
1.060	1.0137E-08
1.530	9.8390E-08
1.970	1.0933E-06
2.325	4.2911E-06
2.500	8.1300E-06
5.0	0.003
6.0	0.005
7.0	0.008
8.0	0.028
8.2	0.061
8.4	0.216
8.5	0.354
8.7	0.543
9.0	0.759
9.2	0.938
9.4	1.123
9.5	1.187
9.6	1.232
9.8	1.240
10.0	1.123
10.5	0.809
11.0	0.485
11.5	0.286
12.0	0.222
12.5	0.244
13.0	0.306
13.5	0.304
14.0	0.280
14.5	0.269
15.0	0.299
15.5	0.288
16.0	0.278
16.5	0.288
17.0	0.309
17.5	0.322
18.0	0.329
18.5	0.382
19.0	0.521
19.5	0.760
20.0	0.966
21.0	1.223
22.0	1.216
23.0	0.988
24.0	0.746
25.0	0.582
27.0	0.462
30.0	0.381
35.0	0.421
40.0	0.487
45.0	0.538
50.0	0.545
60.0	0.536
70.0	0.515
80.0	0.493
90.0	0.470
100.0	0.445

Note: Optical/n_ARC.txt
wl	n
0.2100	1.5383576204905
0.2174	1.530846431063
0.2251	1.5240789072975
0.2330	1.5180417677275
0.2412	1.5125721155558
0.2497	1.5076095872199
0.2585	1.5031009629039
0.2676	1.498999218542
0.2770	1.495262719426
0.2868	1.4918215034661
0.2969	1.488683281387
0.3074	1.4857914366574
0.3182	1.4831504333467
0.3294	1.4807144415912
0.3410	1.4784676522483
0.3530	1.4763951298847
0.3655	1.4744682820342
0.3783	1.4727046797948
0.3917	1.4710525123802
0.4055	1.4695286500209
0.4197	1.4681218218832
0.4345	1.4668048202486
0.4498	1.465580829975
0.4657	1.4644360310913
0.4821	1.4633719346282
0.4991	1.4623764385944
0.5167	1.4614449911601
0.5349	1.4605730794883
0.5537	1.4597562854765
0.5732	1.4589865613939
0.5934	1.4582607881284
0.6143	1.4575758068817
0.6360	1.4569256013294
0.6584	1.4563104080175
0.6816	1.4557246986958
0.7056	1.4551660299221
0.7305	1.4546298754538
0.7562	1.4541161650842
0.7829	1.4536188536247
0.8104	1.4531396102638
0.8390	1.4526712743322
0.8686	1.4522138205731
0.8992	1.4517653834747
0.9308	1.4513240787777
0.9636	1.4508853971281
0.9976	1.450447735732
1.033	1.4500069615101
1.069	1.4495710901504
1.107	1.4491214616538
1.146	1.448668310738
1.186	1.4482096590065
1.228	1.4477322458328
1.271	1.4472455774929
1.316	1.4467363524093
1.362	1.4462138519129
1.410	1.445664578157
1.460	1.4450861470109
1.512	1.4444759883488
1.565	1.4438434020915
1.620	1.4431739285381
1.677	1.4424645759259
1.736	1.4417121733672
1.797	1.4409133669095
1.861	1.4400509385522
1.926	1.43914806608
1.994	1.4381729429417
2.064	1.4371349603433
2.137	1.4360139618555
2.212	1.4348196176837
2.290	1.433529881253
2.371	1.4321372109342
2.454	1.4306516985468
2.541	1.4290287283802
2.630	1.427296093753
2.723	1.4254044329951
2.819	1.4233613684394
2.918	1.4211544161909
3.021	1.4187459519934
3.128	1.416117293379
3.238	1.4132741569442
3.352	1.4101696832452
3.470	1.4067782146466
3.592	1.4030708962299
3.719	1.3989819997456
3.850	1.3945035722002
3.986	1.3895553417944
4.126	1.3841208059058
4.271	1.3780997735118
4.422	1.3713701305288
4.578	1.36388143366
4.739	1.3555262189157
4.906	1.3461171232165
5.079	1.3354823573874
5.258	1.3234105439689
5.443	1.3096384003386
5.635	1.2937460280032
5.833	1.2753723963511
6.039	1.2537289561387
6.252	1.2280888354422
6.472	1.1973256716307
6.700	1.1596494139777
7 1.097997302093065
8 0.6415507276379124
9 0.5
10 6.748680285267553
11 2.610018010156215
12 2.2157719742726383
13 2.0587449294482676
14 1.9743111344072604
15 1.9218076352439917
16 1.8861812864709893
17 1.8605473370946133
18 1.8413072060325875
19 1.8263968676272098
20 1.8145483027873177
21 1.80494013461072
22 1.7970173924709336
23 1.7903919877485506
24 1.7847846588524134
25 1.7799895383942708
26 1.775851689450056
27 1.7722523949516766
28 1.769099251145204
29 1.7663193315970014
30 1.76385436774305
31 1.7616572858642343
32 1.7596896760860985
33 1.7579199141039588
34 1.7563217479382487
35 1.7548732211806741


Note: README.md
# HMT-Agrivoltaics

Heat and mass transfer (HMT) utilities and notebooks for open-field bifacial semi-transparent agrivoltaic orchards modelling workflows. 

## What’s in this repo

This repository contains a small set of Python modules, a Jupyter notebook, and bundled input data.

### Repository structure

- `base.ipynb` — main notebook entry point for running/inspecting the workflow. :contentReference[oaicite:2]{index=2}  
- `functions_module.py` — helper functions used by the notebook/workflow. :contentReference[oaicite:3]{index=3}  
- `ET_func.py` — evapotranspiration-related utilities (as used in the workflow). :contentReference[oaicite:4]{index=4}  
- `py56FAO/` — local FAO-56 related code/resources used by the project. :contentReference[oaicite:5]{index=5}  
- `Optical.zip` — optical-related input files (zipped). :contentReference[oaicite:6]{index=6}  
- `Weather.zip` — weather input files (zipped). :contentReference[oaicite:7]{index=7}  

## Quick start
### 1) Clone the repository
```bash
git clone https://github.com/marta2amoros/HMT-Agrivoltaics.git
cd HMT-Agrivoltaics
```


### 2) Create a Python environment (recommended)

Using `venv`:

```bash
python -m venv .venv
```
### 3) Install dependencies

Install the packages used in `base.ipynb`:

```bash
pip install pvlib pandas numpy psychrolib matplotlib scipy tmm thermo pyfao56 import-ipynb nbimporter
```
### 4) Unzip input data
```bash
unzip -o Optical.zip -d Optical
unzip -o Weather.zip -d Weather
```

### 5) Run the notebook
```bash
jupyter notebook
```
Open `base.ipynb` and run cells top-to-bottom.


## Typical workflow

1. Unzip `Weather.zip` and `Optical.zip` into `Weather/` and `Optical/`.

2. Open and run `base.ipynb`.

3. The notebook calls functions from:

  - `ET_func.py` (evapotranspiration-related routines)

  - `functions_module.py` (shared utilities)

  - `py56FAO/` (FAO-56 related components)

## Data notes

`Weather.zip` should contain meteorological inputs and input data used by the workflow.

`Optical.zip` should contain optical inputs used by the workflow.

If you change the input datasets, keep the expected file names and folder structure (or update the paths used in `base.ipynb`).

File: Glass_ALEO_R.csv
Wavelength (nm),Reflectance (%)
300,7.099693
310,7.914764
320,8.841091
330,9.323881
340,9.576142
350,9.548967
360,9.457373
370,9.309836
380,9.027447
390,8.772477
400,8.566263
410,8.432181
420,8.332139
430,8.249299
440,8.161667
450,8.118854
460,8.037615
470,7.986081
480,7.945686
490,7.907258
500,7.864074
510,7.830602
520,7.793296
530,7.75826
540,7.737804
550,7.718847
560,7.697535
570,7.661505
580,7.644585
590,7.625818
600,7.603226
610,7.576953
620,7.562779
630,7.542895
640,7.527935
650,7.506021
660,7.479347
670,7.483062
680,7.472871
690,7.483896
700,7.434876
710,7.445268
720,7.435535
730,7.435434
740,7.421477
750,7.4254
760,7.406301
770,7.398376
780,7.385895
790,7.400653
800,7.415876
810,7.375071
820,7.41898
830,7.42901
840,7.43905
850,7.44909
860,7.45912
870,7.46916
880,7.4792
890,7.48923
900,7.49927
910,7.50931
920,7.540036
930,7.513796
940,7.472791
950,7.514855
960,7.464596
970,7.447986
980,7.409345
990,7.464002
1000,7.385371
1010,7.420977
1020,7.358649
1030,7.387029
1040,7.36886
1050,7.36714
1060,7.346677
1070,7.359311
1080,7.313399
1090,7.333452
1100,7.344033
1110,7.320188
1120,7.331635
1130,7.331471
1140,7.325796
1150,7.318158
1160,7.304328
1170,7.311326
1180,7.268935
1190,7.288134
1200,7.286931
1210,7.290396
1220,7.28984
1230,7.27039
1240,7.281415
1250,7.223435
1260,7.308233
1270,7.271077
1280,7.243111
1290,7.227358
1300,7.247166
1310,7.224235
1320,7.247676
1330,7.214396
1340,7.224643
1350,7.202649
1360,7.194712
1370,7.22343
1380,7.184029
1390,7.207067
1400,7.175916
1410,7.126542
1420,7.152131
1430,7.158526
1440,7.131585
1450,7.138092
1460,7.108759
1470,7.133674
1480,7.130092
1490,7.112788
1500,7.13552
1510,7.139894
1520,7.105436
1530,7.156259
1540,7.113921
1550,7.137904
1560,7.124762
1570,7.107158
1580,7.111665
1590,7.103913
1600,7.121886
1610,7.125906
1620,7.114812
1630,7.122538
1640,7.131538
1650,7.118397
1660,7.089134
1670,7.094007
1680,7.1149
1690,7.105163
1700,7.136566
1710,7.128325
1720,7.144225
1730,7.157354
1740,7.150311
1750,7.106892
1760,7.105877
1770,7.053711
1780,7.058685
1790,7.022445
1800,7.019911
1810,7.034635
1820,7.051219
1830,7.088902
1840,7.080135
1850,7.110115
1860,7.04203
1870,7.059248
1880,7.057043
1890,7.009769
1900,6.930077
1910,6.954822
1920,6.947681
1930,6.971533
1940,6.968123
1950,6.975106
1960,6.936194
1970,6.910773
1980,6.876664
1990,6.853217
2000,6.859383
2010,6.812808
2020,6.815563
2030,6.792805
2040,6.734026
2050,6.734274
2060,6.645454
2070,6.680399
2080,6.681801
2090,6.650386
2100,6.658503
2110,6.65655
2120,6.64125
2130,6.62595
2140,6.61065
2150,6.59535
2160,6.58005
2170,6.56475
2180,6.54945
2190,6.53414
2200,6.51884
2210,6.50354
2220,6.48824
2230,6.47294
2240,6.45764
2250,6.44234
2260,6.42704
2270,6.41173
2280,6.39643
2290,6.38113
2300,6.36583
2310,6.35053
2320,6.33523
2330,6.31993
2340,6.30463
2350,6.28932
2360,6.27402
2370,6.25872
2380,6.24342
2390,6.22812
2400,6.21282
2410,6.19752
2420,6.18222
2430,6.16691
2440,6.15161
2450,6.13631
2460,6.12101
2470,6.10571
2480,6.09041
2490,6.07511
2500,6.05981
2510,6.0445
2520,6.0292
2530,6.0139
2540,5.9986
2550,5.9833
2560,5.968
2570,5.9527
2580,5.9374
2590,5.92209
2600,5.90679
2610,5.89149
2620,5.87619
2630,5.86089
2640,5.84559
2650,5.83029
2660,5.81499
2670,5.79968
2680,5.78438
2690,5.76908
2700,5.75378
2710,5.73848
2720,5.72318
2730,5.70788
2740,5.69258
2750,5.67728
2760,5.66197
2770,5.64667
2780,5.63137
2790,5.61607
2800,5.60077
2810,5.58547

File: Glass_ALEO_T.csv
Wavelength (nm),Transmittance (%)
300,34.2982
310,56.2043
320,72.4119
330,81.6163
340,86.2791
350,88.2713
360,89.0687
370,89.5489
380,89.5526
390,89.7675
400,90.079
410,90.1503
420,90.1554
430,90.1272
440,90.1855
450,90.2815
460,90.3667
470,90.3896
480,90.4397
490,90.3999
500,90.5273
510,90.5676
520,90.5668
530,90.6161
540,90.6326
550,90.6698
560,90.6678
570,90.6783
580,90.6869
590,90.6543
600,90.6388
610,90.7205
620,90.7217
630,90.6668
640,90.7835
650,90.7456
660,90.6872
670,90.6516
680,90.658
690,90.7385
700,90.6323
710,90.775
720,90.7359
730,90.8151
740,90.6863
750,90.8132
760,90.7692
770,90.8645
780,90.671
790,90.56963
800,90.7192
810,90.7244
820,90.6497
830,90.6411
840,90.6326
850,90.6241
860,90.6156
870,90.6071
880,90.5986
890,90.5901
900,90.5816
910,90.5731
920,90.5631
930,90.5443
940,90.6049
950,90.5791
960,90.6437
970,90.5969
980,90.6479
990,90.6024
1000,90.6342
1010,90.5579
1020,90.582
1030,90.6162
1040,90.626
1050,90.5551
1060,90.5974
1070,90.5802
1080,90.60294
1090,90.5658
1100,90.5947
1110,90.5891
1120,90.5936
1130,90.627
1140,90.5886
1150,90.5758
1160,90.5554
1170,90.5696
1180,90.5704
1190,90.5598
1200,90.5542
1210,90.5724
1220,90.5526
1230,90.571
1240,90.5709
1250,90.5776
1260,90.5738
1270,90.606
1280,90.6027
1290,90.6023
1300,90.5975
1310,90.5916
1320,90.573
1330,90.58
1340,90.6016
1350,90.5984
1360,90.5452
1370,90.52
1380,90.51395
1390,90.4256
1400,90.25454
1410,90.1567
1420,90.1319
1430,90.1493
1440,90.2221
1450,90.2294
1460,90.2711
1470,90.2791
1480,90.3496
1490,90.3356
1500,90.3558
1510,90.3644
1520,90.3927
1530,90.3867
1540,90.3964
1550,90.3996
1560,90.3846
1570,90.3512
1580,90.3841
1590,90.37386
1600,90.3548
1610,90.3338
1620,90.3701
1630,90.3321
1640,90.3265
1650,90.3224
1660,90.2951
1670,90.3132
1680,90.2724
1690,90.2671
1700,90.2172
1710,90.1327
1720,90.1186
1730,90.11912
1740,90.0715
1750,89.9729
1760,90.0008
1770,89.9339
1780,89.993
1790,89.8786
1800,89.8518
1810,89.7951
1820,89.8255
1830,89.83452
1840,89.8585
1850,89.8421
1860,89.7098
1870,89.639
1880,89.6232
1890,89.4834
1900,89.3523
1910,89.3398
1920,89.27638
1930,89.0684
1940,89.1407
1950,89.0183
1960,89.1036
1970,89.083
1980,89.0247
1990,89.0471
2000,89.0162
2010,89.1717
2020,89.16515
2030,89.3006
2040,89.1289
2050,89.04225
2060,89.171
2070,89.1779
2080,89.008
2090,88.8832
2100,88.8944
2110,88.8165
2120,88.7852
2130,88.7538
2140,88.7224
2150,88.691
2160,88.6596
2170,88.6283
2180,88.5969
2190,88.5655
2200,88.5341
2210,88.5027
2220,88.4714
2230,88.44
2240,88.4086
2250,88.3772
2260,88.3458
2270,88.3145
2280,88.2831
2290,88.2517
2300,88.2203
2310,88.189
2320,88.1576
2330,88.1262
2340,88.0948
2350,88.0634
2360,88.0321
2370,88.0007
2380,87.9693
2390,87.9379
2400,87.9065
2410,87.8752
2420,87.8438
2430,87.8124
2440,87.781
2450,87.7496
2460,87.7183
2470,87.6869
2480,87.6555
2490,87.6241
2500,87.5928
2510,87.5614
2520,87.53
2530,87.4986
2540,87.4672
2550,87.4359
2560,87.4045
2570,87.3731
2580,87.3417
2590,87.3103
2600,87.279
2610,87.2476
2620,87.2162
2630,87.1848
2640,87.1534
2650,87.1221
2660,87.0907
2670,87.0593
2680,87.0279
2690,86.9965
2700,86.9652
2710,86.9338
2720,86.9024
2730,86.871
2740,86.8397
2750,86.8083
2760,86.7769
2770,86.7455
2780,86.7141
2790,86.6828
2800,86.6514
2810,86.62